<Bundle xmlns="http://hl7.org/fhir">
   <id value="5556ac6c-884a-39c1-b64e-16481fd68e13"></id>
   <meta>
      <lastUpdated value="2023-04-15T09:50:00.000+01:00"></lastUpdated>
      <profile value="https://demis.rki.de/fhir/StructureDefinition/NotificationBundleDisease"></profile>
   </meta>
   <identifier>
      <system value="https://demis.rki.de/fhir/NamingSystem/NotificationBundleId"></system>
      <value value="8651b27f-db4f-3017-a146-bac15235ea41"></value>
   </identifier>
   <type value="document"></type>
   <timestamp value="2023-04-15T09:50:00.000+01:00"></timestamp>
   <entry>
      <fullUrl value="https://demis.rki.de/fhir/Composition/289f88de-136a-34a7-823d-c060f0873207"></fullUrl>
      <resource>
         <Composition xmlns="http://hl7.org/fhir">
            <id value="289f88de-136a-34a7-823d-c060f0873207"></id>
            <meta>
               <lastUpdated value="2023-04-15T09:50:00.000+01:00"></lastUpdated>
               <profile value="https://demis.rki.de/fhir/StructureDefinition/NotificationDiseaseNEID"></profile>
            </meta>
            <identifier>
               <system value="https://demis.rki.de/fhir/NamingSystem/NotificationId"></system>
               <value value="c998deee-7fb7-4830-b9b7-fcd8ff14e42f"></value>
            </identifier>
            <status value="final"></status>
            <type>
               <coding>
                  <system value="http://loinc.org"></system>
                  <code value="34782-3"></code>
                  <display value="Infectious disease Note"></display>
               </coding>
            </type>
            <category>
               <coding>
                  <system value="https://demis.rki.de/fhir/CodeSystem/notificationType"></system>
                  <code value="6.1_2"></code>
                  <display value="Meldung gemäß §6 Absatz 1, 2"></display>
               </coding>
            </category>
            <subject>
               <reference value="Patient/02ea31f4-aa03-3311-a52c-ee4498517851"></reference>
            </subject>
            <date value="2023-04-15T02:00:00+02:00"></date>
            <author>
               <reference value="PractitionerRole/45d0a643-8a8c-3c3e-92b5-5fe08edd8e64"></reference>
            </author>
            <title value="Meldung gemäß §6 Absatz 1, 2 IfSG"></title>
            <section>
               <title value="Diagnose"></title>
               <code>
                  <coding>
                     <system value="https://demis.rki.de/fhir/CodeSystem/sectionCode"></system>
                     <code value="diagnosis"></code>
                     <display value="Diagnose"></display>
                  </coding>
               </code>
               <entry>
                  <reference value="Condition/426529bb-6abc-3853-962f-7b7ad0077418"></reference>
               </entry>
            </section>
            <section>
               <title value="Meldetatbestandsübergreifende klinische und epidemiologische Angaben"></title>
               <code>
                  <coding>
                     <system value="https://demis.rki.de/fhir/CodeSystem/sectionCode"></system>
                     <code value="generalClinAndEpiInformation"></code>
                     <display value="Meldetatbestandsübergreifende klinische und epidemiologische Angaben"></display>
                  </coding>
               </code>
               <entry>
                  <reference value="QuestionnaireResponse/a67d3630-2ddd-39b7-87cb-5e19672c72ac"></reference>
               </entry>
            </section>
            <section>
               <title value="Meldetatbestandsspezifische klinische und epidemiologische Angaben"></title>
               <code>
                  <coding>
                     <system value="https://demis.rki.de/fhir/CodeSystem/sectionCode"></system>
                     <code value="specificClinAndEpiInformation"></code>
                     <display value="Meldetatbestandsspezifische klinische und epidemiologische Angaben"></display>
                  </coding>
               </code>
               <entry>
                  <reference value="QuestionnaireResponse/118e3a62-0b36-3e1f-9a6b-549405a876a9"></reference>
               </entry>
            </section>
         </Composition>
      </resource>
   </entry>
   <entry>
      <fullUrl value="https://demis.rki.de/fhir/Organization/2d146d8e-231c-3f1d-bc5e-45b2f31fd69f"></fullUrl>
      <resource>
         <Organization xmlns="http://hl7.org/fhir">
            <id value="2d146d8e-231c-3f1d-bc5e-45b2f31fd69f"></id>
            <meta>
               <profile value="https://demis.rki.de/fhir/StructureDefinition/NotifiedPersonFacility"></profile>
            </meta>
            <name value="Martin Luther Hospital - Meldezentrale"></name>
            <address>
               <line value="Havelchaussee. 93"></line>
               <city value="Berlin"></city>
               <postalCode value="13597"></postalCode>
               <country value="DE"></country>
            </address>
            <contact>
               <name>
                  <use value="official"></use>
                  <family value="Neudorf"></family>
                  <given value="Lea"></given>
               </name>
            </contact>
         </Organization>
      </resource>
   </entry>
   <entry>
      <fullUrl value="https://demis.rki.de/fhir/Patient/02ea31f4-aa03-3311-a52c-ee4498517851"></fullUrl>
      <resource>
         <Patient xmlns="http://hl7.org/fhir">
            <id value="02ea31f4-aa03-3311-a52c-ee4498517851"></id>
            <meta>
               <profile value="https://demis.rki.de/fhir/StructureDefinition/NotifiedPerson"></profile>
            </meta>
            <name>
               <use value="official"></use>
               <family value="Ali"></family>
               <given value="Serkan"></given>
            </name>
            <telecom>
               <system value="phone"></system>
               <value value="030 123456789"></value>
            </telecom>
            <telecom>
               <system value="email"></system>
               <value value="bb@hfksjfhdaksljdfhsakl.de"></value>
            </telecom>
            <gender value="male"></gender>
            <birthDate value="2022-08-05"></birthDate>
            <address>
               <extension url="https://demis.rki.de/fhir/StructureDefinition/AddressUse">
                  <valueCoding>
                     <system value="https://demis.rki.de/fhir/CodeSystem/addressUse"></system>
                     <code value="current"></code>
                  </valueCoding>
               </extension>
               <extension url="https://demis.rki.de/fhir/StructureDefinition/FacilityAddressNotifiedPerson">
                  <valueReference>
                     <reference value="Organization/2d146d8e-231c-3f1d-bc5e-45b2f31fd69f"></reference>
                  </valueReference>
               </extension>
            </address>
            <address>
               <extension url="https://demis.rki.de/fhir/StructureDefinition/AddressUse">
                  <valueCoding>
                     <system value="https://demis.rki.de/fhir/CodeSystem/addressUse"></system>
                     <code value="primary"></code>
                  </valueCoding>
               </extension>
               <line value="Bertolt-Brecht-Platz 1"></line>
               <city value="Berlin"></city>
               <postalCode value="10117"></postalCode>
               <country value="DE"></country>
            </address>
         </Patient>
      </resource>
   </entry>
   <entry>
      <fullUrl value="https://demis.rki.de/fhir/Condition/426529bb-6abc-3853-962f-7b7ad0077418"></fullUrl>
      <resource>
         <Condition xmlns="http://hl7.org/fhir">
            <id value="426529bb-6abc-3853-962f-7b7ad0077418"></id>
            <meta>
               <profile value="https://demis.rki.de/fhir/StructureDefinition/DiseaseNEID"></profile>
            </meta>
            <verificationStatus>
               <coding>
                  <system value="http://terminology.hl7.org/CodeSystem/condition-ver-status"></system>
                  <code value="confirmed"></code>
               </coding>
            </verificationStatus>
            <code>
               <coding>
                  <system value="https://demis.rki.de/fhir/CodeSystem/notificationDiseaseCategory"></system>
                  <code value="neid"></code>
                  <display value="Meningokokken, invasive Erkrankung"></display>
               </coding>
            </code>
            <subject>
               <reference value="Patient/02ea31f4-aa03-3311-a52c-ee4498517851"></reference>
            </subject>
            <onsetDateTime value="2023-04-13"></onsetDateTime>
            <recordedDate value="2023-04-15"></recordedDate>
            <evidence>
               <code>
                  <coding>
                     <system value="http://snomed.info/sct"></system>
                     <code value="386661006"></code>
                     <display value="Fieber"></display>
                  </coding>
               </code>
            </evidence>
            <evidence>
               <code>
                  <coding>
                     <system value="http://snomed.info/sct"></system>
                     <code value="422400008"></code>
                     <display value="Erbrechen"></display>
                  </coding>
               </code>
            </evidence>
            <evidence>
               <code>
                  <coding>
                     <system value="http://snomed.info/sct"></system>
                     <code value="233604007"></code>
                     <display value="Lungenentzündung (Pneumonie)"></display>
                  </coding>
               </code>
            </evidence>
            <evidence>
               <code>
                  <coding>
                     <system value="http://snomed.info/sct"></system>
                     <code value="447931005"></code>
                     <display value="septisches Krankheitsbild"></display>
                  </coding>
               </code>
            </evidence>
            <evidence>
               <code>
                  <coding>
                     <system value="http://snomed.info/sct"></system>
                     <code value="271813007"></code>
                     <display value="Hauteinblutung, Petechien"></display>
                  </coding>
               </code>
            </evidence>
         </Condition>
      </resource>
   </entry>
   <entry>
      <fullUrl value="https://demis.rki.de/fhir/Immunization/fc370f86-f976-33eb-908b-819e7c153e12"></fullUrl>
      <resource>
         <Immunization xmlns="http://hl7.org/fhir">
            <id value="fc370f86-f976-33eb-908b-819e7c153e12"></id>
            <meta>
               <profile value="https://demis.rki.de/fhir/StructureDefinition/ImmunizationInformationNEID"></profile>
            </meta>
            <status value="completed"></status>
            <vaccineCode>
               <coding>
                  <system value="http://snomed.info/sct"></system>
                  <code value="951000221102"></code>
                  <display value="Meningokokken-C-Konjugat-Impfstoff (Konjugat C) (Menjugate 10 Mikrogramm, NeisVac-C,MENJUGATE KIT)"></display>
               </coding>
            </vaccineCode>
            <patient>
               <reference value="Patient/02ea31f4-aa03-3311-a52c-ee4498517851"></reference>
            </patient>
            <occurrenceString value="ASKU"></occurrenceString>
            <note>
               <text value="-"></text>
            </note>
         </Immunization>
      </resource>
   </entry>
   <entry>
      <fullUrl value="https://demis.rki.de/fhir/Organization/b291602d-cbfb-4893-9268-bd9c9fde2aad"></fullUrl>
      <resource>
         <Organization xmlns="http://hl7.org/fhir">
            <id value="b291602d-cbfb-4893-9268-bd9c9fde2aad"></id>
            <meta>
               <profile value="https://demis.rki.de/fhir/StructureDefinition/NotifierFacility"></profile>
            </meta>
            <identifier>
               <system value="http://fhir.de/sid/arge-ik/iknr"></system>
            </identifier>
            <type>
               <coding>
                  <system value="https://demis.rki.de/fhir/CodeSystem/organizationType"></system>
                  <code value="hospital"></code>
               </coding>
            </type>
            <name value="Martin Luther Hospital - Meldestandort"></name>
            <telecom>
               <system value="phone"></system>
               <value value="030777123490"></value>
               <use value="work"></use>
            </telecom>
            <address>
               <line value="Havelchaussee 93"></line>
               <city value="Berlin"></city>
               <postalCode value="13597"></postalCode>
               <country value="DE"></country>
            </address>
         </Organization>
      </resource>
   </entry>
   <entry>
      <fullUrl value="https://demis.rki.de/fhir/PractitionerRole/45d0a643-8a8c-3c3e-92b5-5fe08edd8e64"></fullUrl>
      <resource>
         <PractitionerRole xmlns="http://hl7.org/fhir">
            <id value="45d0a643-8a8c-3c3e-92b5-5fe08edd8e64"></id>
            <meta>
               <profile value="https://demis.rki.de/fhir/StructureDefinition/NotifierRole"></profile>
            </meta>
            <organization>
               <reference value="Organization/b291602d-cbfb-4893-9268-bd9c9fde2aad"></reference>
            </organization>
         </PractitionerRole>
      </resource>
   </entry>
   <entry>
      <fullUrl value="https://demis.rki.de/fhir/Organization/edadf3da-6b64-463e-9246-6cc6c9a3003c"></fullUrl>
      <resource>
         <Organization xmlns="http://hl7.org/fhir">
            <id value="edadf3da-6b64-463e-9246-6cc6c9a3003c"></id>
            <meta>
               <profile value="http://hl7.org/fhir/StructureDefinition/Organization"></profile>
            </meta>
            <type>
               <coding>
                  <system value="https://demis.rki.de/fhir/CodeSystem/organizationType"></system>
                  <code value="hospitalLab"></code>
               </coding>
            </type>
            <name value="Sankt Gertrauden Krankenhaus - Krankenhauslabor"></name>
            <telecom>
               <system value="phone"></system>
               <value value="0309876543211"></value>
               <use value="work"></use>
            </telecom>
            <address>
               <line value="Dingsweg 321"></line>
               <city value="Berlin"></city>
               <postalCode value="13055"></postalCode>
               <country value="DE"></country>
            </address>
         </Organization>
      </resource>
   </entry>
   <entry>
      <fullUrl value="https://demis.rki.de/fhir/Encounter/4ecd149d-93e0-379d-a143-ba6d877acefa"></fullUrl>
      <resource>
         <Encounter xmlns="http://hl7.org/fhir">
            <id value="4ecd149d-93e0-379d-a143-ba6d877acefa"></id>
            <meta>
               <profile value="https://demis.rki.de/fhir/StructureDefinition/Hospitalization"></profile>
            </meta>
            <status value="in-progress"></status>
            <class>
               <system value="http://terminology.hl7.org/CodeSystem/v3-ActCode"></system>
               <code value="IMP"></code>
               <display value="inpatient encounter"></display>
            </class>
            <serviceType>
               <coding>
                  <system value="https://demis.rki.de/fhir/CodeSystem/hospitalizationServiceType"></system>
                  <code value="0152"></code>
                  <display value="Schwerpunkt Infektionskrankheiten"></display>
               </coding>
            </serviceType>
            <subject>
               <reference value="Patient/02ea31f4-aa03-3311-a52c-ee4498517851"></reference>
            </subject>
            <period>
               <start value="2023-04-15"></start>
            </period>
            <serviceProvider>
               <reference value="Organization/2d146d8e-231c-3f1d-bc5e-45b2f31fd69f"></reference>
            </serviceProvider>
         </Encounter>
      </resource>
   </entry>
   <entry>
      <fullUrl value="https://demis.rki.de/fhir/QuestionnaireResponse/a67d3630-2ddd-39b7-87cb-5e19672c72ac"></fullUrl>
      <resource>
         <QuestionnaireResponse xmlns="http://hl7.org/fhir">
            <id value="a67d3630-2ddd-39b7-87cb-5e19672c72ac"></id>
            <meta>
               <profile value="https://demis.rki.de/fhir/StructureDefinition/DiseaseInformationCommon"></profile>
            </meta>
            <questionnaire value="https://demis.rki.de/fhir/Questionnaire/DiseaseQuestionsCommon"></questionnaire>
            <status value="completed"></status>
            <subject>
               <reference value="Patient/02ea31f4-aa03-3311-a52c-ee4498517851"></reference>
            </subject>
            <item>
               <linkId value="isDead"></linkId>
               <answer>
                  <valueCoding>
                     <system value="https://demis.rki.de/fhir/CodeSystem/yesOrNoAnswer"></system>
                     <code value="no"></code>
                     <display value="Nein"></display>
                  </valueCoding>
               </answer>
            </item>
            <item>
               <linkId value="militaryAffiliation"></linkId>
               <answer>
                  <valueCoding>
                     <system value="https://demis.rki.de/fhir/CodeSystem/militaryAffiliation"></system>
                     <code value="noReferenceToBundeswehr"></code>
                     <display value="Kein Bezug zur BW"></display>
                  </valueCoding>
               </answer>
            </item>
            <item>
               <linkId value="labSpecimenTaken"></linkId>
               <answer>
                  <valueCoding>
                     <system value="https://demis.rki.de/fhir/CodeSystem/yesOrNoAnswer"></system>
                     <code value="yes"></code>
                     <display value="Ja"></display>
                  </valueCoding>
                  <item>
                     <linkId value="labSpecimenLab"></linkId>
                     <answer>
                        <valueReference>
                           <reference value="Organization/edadf3da-6b64-463e-9246-6cc6c9a3003c"></reference>
                        </valueReference>
                     </answer>
                  </item>
               </answer>
            </item>
            <item>
               <linkId value="hospitalized"></linkId>
               <answer>
                  <valueCoding>
                     <system value="https://demis.rki.de/fhir/CodeSystem/yesOrNoAnswer"></system>
                     <code value="yes"></code>
                     <display value="Ja"></display>
                  </valueCoding>
                  <item>
                     <linkId value="hospitalizedGroup"></linkId>
                     <item>
                        <linkId value="hospitalizedEncounter"></linkId>
                        <answer>
                           <valueReference>
                              <reference value="Encounter/4ecd149d-93e0-379d-a143-ba6d877acefa"></reference>
                           </valueReference>
                        </answer>
                     </item>
                  </item>
               </answer>
            </item>
            <item>
               <linkId value="infectProtectFacility"></linkId>
               <answer>
                  <valueCoding>
                     <system value="https://demis.rki.de/fhir/CodeSystem/yesOrNoAnswer"></system>
                     <code value="no"></code>
                     <display value="Nein"></display>
                  </valueCoding>
               </answer>
            </item>
            <item>
               <linkId value="placeExposure"></linkId>
               <answer>
                  <valueCoding>
                     <system value="https://demis.rki.de/fhir/CodeSystem/yesOrNoAnswer"></system>
                     <code value="yes"></code>
                     <display value="Ja"></display>
                  </valueCoding>
                  <item>
                     <linkId value="placeExposureGroup"></linkId>
                     <item>
                        <linkId value="placeExposureBegin"></linkId>
                        <answer>
                           <valueDate value="2023-03-10"></valueDate>
                        </answer>
                     </item>
                     <item>
                        <linkId value="placeExposureEnd"></linkId>
                        <answer>
                           <valueDate value="2023-04-10"></valueDate>
                        </answer>
                     </item>
                     <item>
                        <linkId value="placeExposureRegion"></linkId>
                        <answer>
                           <valueCoding>
                              <system value="http://snomed.info/sct"></system>
                              <code value="21000223"></code>
                              <display value="Indien"></display>
                           </valueCoding>
                        </answer>
                     </item>
                     <item>
                        <linkId value="placeExposureHint"></linkId>
                        <answer>
                           <valueString value="-"></valueString>
                        </answer>
                     </item>
                  </item>
               </answer>
            </item>
            <item>
               <linkId value="organDonation"></linkId>
               <answer>
                  <valueCoding>
                     <system value="https://demis.rki.de/fhir/CodeSystem/yesOrNoAnswer"></system>
                     <code value="no"></code>
                     <display value="Nein"></display>
                  </valueCoding>
               </answer>
            </item>
         </QuestionnaireResponse>
      </resource>
   </entry>
   <entry>
      <fullUrl value="https://demis.rki.de/fhir/QuestionnaireResponse/118e3a62-0b36-3e1f-9a6b-549405a876a9"></fullUrl>
      <resource>
         <QuestionnaireResponse xmlns="http://hl7.org/fhir">
            <id value="118e3a62-0b36-3e1f-9a6b-549405a876a9"></id>
            <meta>
               <profile value="https://demis.rki.de/fhir/StructureDefinition/DiseaseInformationNEID"></profile>
            </meta>
            <questionnaire value="https://demis.rki.de/fhir/Questionnaire/DiseaseQuestionsNEID"></questionnaire>
            <status value="completed"></status>
            <subject>
               <reference value="Patient/02ea31f4-aa03-3311-a52c-ee4498517851"></reference>
            </subject>
            <item>
               <linkId value="immunization"></linkId>
               <answer>
                  <valueCoding>
                     <system value="https://demis.rki.de/fhir/CodeSystem/yesOrNoAnswer"></system>
                     <code value="yes"></code>
                     <display value="Ja"></display>
                  </valueCoding>
                  <item>
                     <linkId value="immunizationRef"></linkId>
                     <answer>
                        <valueReference>
                           <reference value="Immunization/fc370f86-f976-33eb-908b-819e7c153e12"></reference>
                        </valueReference>
                     </answer>
                  </item>
               </answer>
            </item>
            <item>
               <linkId value="infectionRiskKind"></linkId>
               <answer>
                  <valueCoding>
                     <system value="http://snomed.info/sct"></system>
                     <code value="260413007"></code>
                     <display value="keine"></display>
                  </valueCoding>
               </answer>
            </item>
            <item>
               <linkId value="outbreak"></linkId>
               <answer>
                  <valueCoding>
                     <system value="https://demis.rki.de/fhir/CodeSystem/yesOrNoAnswer"></system>
                     <code value="no"></code>
                     <display value="Nein"></display>
                  </valueCoding>
               </answer>
            </item>
         </QuestionnaireResponse>
      </resource>
   </entry>
</Bundle>